PL
wavelength	7,35E-5	1,47E-4	2,205E-4	2,94E-4
190,00	3,776	3,554	3,289	4,000
190,50	3,275	3,758	3,722	3,650
191,00	3,275	3,785	3,758	3,494
191,50	3,506	3,777	3,946	3,896
192,00	3,257	3,826	3,775	3,904
192,50	3,341	3,852	3,775	3,949
193,00	3,590	3,917	3,881	3,826
193,50	3,623	3,756	3,590	3,770
194,00	3,417	3,783	3,860	3,862
194,50	3,659	3,847	3,866	3,915
195,00	3,654	3,884	3,890	3,805
195,50	3,667	3,788	3,856	3,893
196,00	3,514	3,719	3,810	3,968
196,50	3,616	3,771	3,854	3,979
197,00	3,794	3,705	3,911	3,905
197,50	3,813	3,948	3,931	3,939
198,00	3,750	3,940	3,836	3,904
198,50	3,720	3,978	3,947	3,939
199,00	3,705	3,882	3,973	3,915
199,50	3,763	3,803	3,950	3,976
200,00	3,633	3,831	3,904	3,902
200,50	3,634	3,804	3,899	3,927
201,00	3,603	3,916	3,844	3,868
201,50	3,652	3,929	4,000	3,952
202,00	3,695	3,914	3,923	3,908
202,50	3,817	3,858	3,899	3,985
203,00	3,689	3,859	3,887	4,000
203,50	3,685	3,906	4,000	3,937
204,00	3,492	3,871	3,913	3,978
204,50	3,612	3,832	3,927	3,984
205,00	3,575	3,786	3,965	3,986
205,50	3,589	3,776	3,883	4,000
206,00	3,591	3,926	4,000	3,937
206,50	3,518	3,837	3,923	3,986
207,00	3,583	3,891	3,997	3,963
207,50	3,457	3,816	3,968	3,948
208,00	3,445	3,693	3,958	3,918
208,50	3,327	3,733	3,897	3,873
209,00	3,143	3,738	3,867	3,960
209,50	2,938	3,519	3,904	3,925
210,00	2,704	3,408	3,860	4,000
210,50	2,454	3,198	3,779	3,912
211,00	2,226	2,978	3,738	3,882
211,50	2,015	2,752	3,556	3,873
212,00	1,820	2,549	3,230	3,737
212,50	1,642	2,352	3,043	3,745
213,00	1,483	2,167	2,871	3,431
213,50	1,341	1,995	2,673	3,293
214,00	1,211	1,837	2,491	3,071
214,50	1,096	1,690	2,311	2,886
215,00	0,994	1,558	2,149	2,686
215,50	0,903	1,439	2,002	2,525
216,00	0,824	1,331	1,870	2,368
216,50	0,754	1,236	1,750	2,225
217,00	0,693	1,151	1,644	2,103
217,50	0,640	1,078	1,550	1,989
218,00	0,596	1,017	1,472	1,895
218,50	0,560	0,967	1,409	1,819
219,00	0,529	0,926	1,357	1,759
219,50	0,504	0,893	1,317	1,710
220,00	0,485	0,868	1,286	1,675
220,50	0,471	0,851	1,266	1,651
221,00	0,460	0,840	1,254	1,639
221,50	0,454	0,834	1,249	1,636
222,00	0,450	0,834	1,251	1,640
222,50	0,449	0,837	1,258	1,651
223,00	0,449	0,843	1,269	1,667
223,50	0,452	0,852	1,284	1,688
224,00	0,456	0,864	1,302	1,712
224,50	0,461	0,877	1,323	1,740
225,00	0,466	0,890	1,342	1,767
225,50	0,472	0,905	1,364	1,798
226,00	0,478	0,920	1,389	1,829
226,50	0,486	0,937	1,413	1,863
227,00	0,493	0,954	1,439	1,896
227,50	0,501	0,972	1,465	1,930
228,00	0,509	0,989	1,491	1,965
228,50	0,516	1,006	1,516	1,998
229,00	0,524	1,022	1,540	2,029
229,50	0,531	1,038	1,563	2,060
230,00	0,539	1,055	1,589	2,093
230,50	0,547	1,072	1,613	2,126
231,00	0,554	1,088	1,638	2,159
231,50	0,561	1,102	1,659	2,184
232,00	0,568	1,117	1,680	2,213
232,50	0,575	1,131	1,701	2,240
233,00	0,581	1,144	1,719	2,263
233,50	0,587	1,155	1,737	2,286
234,00	0,592	1,168	1,755	2,310
234,50	0,598	1,178	1,771	2,329
235,00	0,602	1,187	1,784	2,350
235,50	0,606	1,196	1,796	2,363
236,00	0,610	1,203	1,807	2,374
236,50	0,613	1,209	1,816	2,395
237,00	0,615	1,215	1,824	2,400
237,50	0,617	1,218	1,830	2,402
238,00	0,618	1,221	1,833	2,409
238,50	0,619	1,222	1,835	2,411
239,00	0,619	1,222	1,833	2,410
239,50	0,618	1,221	1,832	2,409
240,00	0,617	1,218	1,827	2,400
240,50	0,615	1,214	1,821	2,395
241,00	0,613	1,210	1,815	2,384
241,50	0,610	1,204	1,805	2,372
242,00	0,606	1,197	1,794	2,362
242,50	0,601	1,188	1,782	2,341
243,00	0,596	1,178	1,768	2,323
243,50	0,591	1,167	1,750	2,301
244,00	0,585	1,155	1,732	2,278
244,50	0,577	1,140	1,710	2,249
245,00	0,570	1,125	1,689	2,222
245,50	0,561	1,108	1,663	2,186
246,00	0,552	1,090	1,637	2,154
246,50	0,542	1,070	1,607	2,113
247,00	0,531	1,049	1,576	2,073
247,50	0,519	1,026	1,542	2,028
248,00	0,507	1,001	1,504	1,978
248,50	0,493	0,974	1,463	1,927
249,00	0,479	0,946	1,422	1,873
249,50	0,464	0,916	1,377	1,813
250,00	0,449	0,886	1,333	1,754
250,50	0,432	0,853	1,283	1,690
251,00	0,416	0,821	1,236	1,629
251,50	0,400	0,788	1,187	1,564
252,00	0,382	0,754	1,136	1,497
252,50	0,365	0,719	1,085	1,429
253,00	0,346	0,682	1,029	1,356
253,50	0,329	0,648	0,979	1,290
254,00	0,311	0,614	0,927	1,222
254,50	0,294	0,579	0,876	1,155
255,00	0,278	0,548	0,829	1,093
255,50	0,262	0,515	0,782	1,030
256,00	0,246	0,485	0,736	0,969
256,50	0,232	0,457	0,695	0,915
257,00	0,219	0,431	0,656	0,865
257,50	0,206	0,405	0,617	0,813
258,00	0,193	0,380	0,580	0,765
258,50	0,182	0,357	0,547	0,721
259,00	0,172	0,338	0,519	0,685
259,50	0,163	0,320	0,493	0,651
260,00	0,155	0,304	0,468	0,619
260,50	0,147	0,289	0,445	0,589
261,00	0,140	0,275	0,425	0,562
261,50	0,134	0,263	0,406	0,538
262,00	0,128	0,252	0,390	0,516
262,50	0,124	0,243	0,377	0,499
263,00	0,120	0,235	0,366	0,484
263,50	0,116	0,228	0,355	0,469
264,00	0,113	0,222	0,345	0,456
264,50	0,110	0,216	0,337	0,446
265,00	0,108	0,212	0,330	0,437
265,50	0,106	0,208	0,325	0,429
266,00	0,105	0,205	0,321	0,424
266,50	0,103	0,203	0,317	0,419
267,00	0,103	0,201	0,314	0,415
267,50	0,102	0,200	0,313	0,413
268,00	0,102	0,199	0,312	0,412
268,50	0,102	0,199	0,312	0,411
269,00	0,102	0,200	0,312	0,412
269,50	0,102	0,200	0,313	0,413
270,00	0,102	0,201	0,314	0,415
270,50	0,103	0,203	0,316	0,417
271,00	0,104	0,205	0,319	0,421
271,50	0,105	0,207	0,322	0,425
272,00	0,106	0,210	0,326	0,430
272,50	0,108	0,212	0,330	0,436
273,00	0,109	0,216	0,335	0,442
273,50	0,111	0,219	0,340	0,449
274,00	0,113	0,223	0,346	0,457
274,50	0,116	0,228	0,353	0,465
275,00	0,118	0,233	0,361	0,475
275,50	0,121	0,238	0,368	0,485
276,00	0,124	0,244	0,376	0,496
276,50	0,126	0,250	0,385	0,507
277,00	0,130	0,256	0,395	0,520
277,50	0,133	0,264	0,406	0,534
278,00	0,137	0,271	0,417	0,549
278,50	0,141	0,279	0,428	0,563
279,00	0,146	0,287	0,441	0,580
279,50	0,150	0,297	0,455	0,598
280,00	0,155	0,306	0,469	0,617
280,50	0,160	0,317	0,485	0,637
281,00	0,166	0,328	0,501	0,659
281,50	0,172	0,340	0,518	0,682
282,00	0,178	0,352	0,536	0,705
282,50	0,184	0,363	0,554	0,728
283,00	0,190	0,375	0,571	0,751
283,50	0,197	0,389	0,591	0,778
284,00	0,204	0,403	0,612	0,805
284,50	0,211	0,418	0,634	0,833
285,00	0,218	0,432	0,655	0,862
285,50	0,226	0,447	0,677	0,890
286,00	0,233	0,462	0,699	0,920
286,50	0,241	0,477	0,722	0,949
287,00	0,249	0,492	0,744	0,978
287,50	0,257	0,508	0,767	1,009
288,00	0,265	0,525	0,793	1,042
288,50	0,274	0,542	0,817	1,074
289,00	0,281	0,557	0,840	1,104
289,50	0,290	0,574	0,864	1,136
290,00	0,298	0,590	0,888	1,167
290,50	0,306	0,605	0,910	1,196
291,00	0,314	0,621	0,934	1,228
291,50	0,321	0,636	0,956	1,258
292,00	0,329	0,651	0,978	1,286
292,50	0,336	0,666	1,000	1,315
293,00	0,343	0,679	1,020	1,342
293,50	0,350	0,694	1,041	1,369
294,00	0,357	0,707	1,062	1,395
294,50	0,363	0,719	1,080	1,419
295,00	0,370	0,732	1,099	1,445
295,50	0,375	0,744	1,115	1,467
296,00	0,381	0,755	1,132	1,488
296,50	0,386	0,765	1,147	1,508
297,00	0,390	0,774	1,160	1,526
297,50	0,394	0,782	1,173	1,541
298,00	0,398	0,789	1,183	1,557
298,50	0,401	0,796	1,192	1,569
299,00	0,404	0,801	1,201	1,580
299,50	0,406	0,806	1,207	1,587
300,00	0,408	0,809	1,212	1,593
300,50	0,408	0,811	1,215	1,598
301,00	0,409	0,812	1,216	1,601
301,50	0,409	0,812	1,216	1,600
302,00	0,408	0,811	1,214	1,598
302,50	0,407	0,808	1,210	1,591
303,00	0,405	0,804	1,205	1,585
303,50	0,402	0,798	1,196	1,573
304,00	0,398	0,792	1,185	1,560
304,50	0,394	0,784	1,174	1,545
305,00	0,389	0,774	1,160	1,527
305,50	0,384	0,764	1,144	1,506
306,00	0,378	0,751	1,126	1,482
306,50	0,371	0,737	1,105	1,454
307,00	0,364	0,723	1,084	1,428
307,50	0,356	0,709	1,062	1,398
308,00	0,347	0,692	1,036	1,364
308,50	0,338	0,673	1,009	1,327
309,00	0,328	0,653	0,979	1,288
309,50	0,317	0,632	0,948	1,247
310,00	0,306	0,610	0,916	1,206
310,50	0,295	0,588	0,883	1,164
311,00	0,284	0,565	0,849	1,118
311,50	0,271	0,541	0,814	1,072
312,00	0,259	0,517	0,777	1,024
312,50	0,247	0,493	0,741	0,977
313,00	0,235	0,469	0,707	0,931
313,50	0,223	0,446	0,672	0,886
314,00	0,211	0,421	0,635	0,837
314,50	0,198	0,396	0,597	0,788
315,00	0,185	0,371	0,560	0,739
315,50	0,173	0,347	0,525	0,693
316,00	0,162	0,325	0,492	0,649
316,50	0,152	0,304	0,461	0,608
317,00	0,141	0,282	0,429	0,566
317,50	0,130	0,261	0,398	0,525
318,00	0,120	0,241	0,367	0,485
318,50	0,110	0,222	0,339	0,448
319,00	0,101	0,203	0,310	0,411
319,50	0,092	0,186	0,286	0,379
320,00	0,085	0,171	0,264	0,350
320,50	0,077	0,157	0,242	0,321
321,00	0,071	0,143	0,222	0,294
321,50	0,064	0,130	0,203	0,269
322,00	0,058	0,119	0,186	0,246
322,50	0,053	0,108	0,170	0,226
323,00	0,048	0,099	0,156	0,208
323,50	0,044	0,090	0,143	0,190
324,00	0,040	0,082	0,131	0,175
324,50	0,036	0,075	0,121	0,161
325,00	0,033	0,069	0,111	0,149
325,50	0,030	0,063	0,103	0,138
326,00	0,028	0,059	0,096	0,129
326,50	0,026	0,055	0,091	0,121
327,00	0,024	0,052	0,086	0,115
327,50	0,023	0,049	0,081	0,109
328,00	0,021	0,046	0,078	0,104
328,50	0,020	0,044	0,074	0,100
329,00	0,019	0,042	0,072	0,096
329,50	0,019	0,041	0,070	0,094
330,00	0,018	0,040	0,069	0,092
330,50	0,018	0,040	0,068	0,091
331,00	0,018	0,039	0,067	0,090
331,50	0,018	0,039	0,067	0,090
332,00	0,018	0,039	0,067	0,090
332,50	0,018	0,039	0,067	0,091
333,00	0,018	0,040	0,068	0,091
333,50	0,018	0,041	0,069	0,093
334,00	0,019	0,041	0,070	0,094
334,50	0,019	0,042	0,071	0,096
335,00	0,020	0,043	0,073	0,098
335,50	0,020	0,044	0,075	0,100
336,00	0,021	0,046	0,076	0,103
336,50	0,021	0,047	0,078	0,105
337,00	0,022	0,048	0,080	0,108
337,50	0,023	0,050	0,083	0,111
338,00	0,024	0,052	0,085	0,114
338,50	0,025	0,053	0,087	0,117
339,00	0,025	0,055	0,090	0,121
339,50	0,026	0,057	0,093	0,124
340,00	0,027	0,058	0,095	0,127
340,50	0,028	0,060	0,098	0,131
341,00	0,029	0,062	0,101	0,135
341,50	0,030	0,064	0,104	0,139
342,00	0,031	0,066	0,107	0,143
342,50	0,032	0,068	0,110	0,147
343,00	0,033	0,070	0,113	0,151
343,50	0,034	0,073	0,116	0,155
344,00	0,035	0,075	0,119	0,159
344,50	0,036	0,077	0,123	0,163
345,00	0,037	0,079	0,126	0,168
345,50	0,039	0,082	0,129	0,172
346,00	0,040	0,084	0,133	0,177
346,50	0,041	0,086	0,136	0,181
347,00	0,042	0,088	0,139	0,186
347,50	0,043	0,091	0,143	0,190
348,00	0,044	0,093	0,146	0,195
348,50	0,046	0,095	0,150	0,200
349,00	0,047	0,098	0,153	0,204
349,50	0,048	0,100	0,157	0,209
350,00	0,049	0,103	0,160	0,214
350,50	0,050	0,105	0,164	0,219
351,00	0,052	0,108	0,168	0,225
351,50	0,053	0,111	0,172	0,230
352,00	0,055	0,114	0,176	0,235
352,50	0,056	0,117	0,180	0,241
353,00	0,057	0,119	0,184	0,246
353,50	0,058	0,122	0,188	0,251
354,00	0,060	0,125	0,193	0,257
354,50	0,061	0,128	0,197	0,263
355,00	0,063	0,131	0,201	0,268
355,50	0,064	0,133	0,205	0,273
356,00	0,066	0,136	0,209	0,279
356,50	0,067	0,139	0,214	0,285
357,00	0,068	0,142	0,218	0,291
357,50	0,070	0,145	0,222	0,296
358,00	0,071	0,148	0,227	0,302
358,50	0,073	0,151	0,231	0,308
359,00	0,074	0,154	0,236	0,314
359,50	0,076	0,157	0,240	0,320
360,00	0,077	0,160	0,244	0,326
360,50	0,079	0,163	0,249	0,331
361,00	0,080	0,166	0,253	0,337
361,50	0,082	0,169	0,258	0,343
362,00	0,083	0,172	0,262	0,349
362,50	0,085	0,175	0,266	0,355
363,00	0,086	0,178	0,271	0,360
363,50	0,088	0,181	0,275	0,366
364,00	0,089	0,184	0,279	0,371
364,50	0,090	0,186	0,283	0,377
365,00	0,092	0,189	0,287	0,383
365,50	0,094	0,192	0,292	0,389
366,00	0,095	0,195	0,296	0,395
366,50	0,096	0,198	0,300	0,400
367,00	0,098	0,201	0,304	0,405
367,50	0,099	0,204	0,308	0,410
368,00	0,101	0,206	0,312	0,416
368,50	0,102	0,209	0,317	0,421
369,00	0,104	0,212	0,321	0,428
369,50	0,105	0,215	0,325	0,433
370,00	0,106	0,218	0,329	0,438
370,50	0,107	0,220	0,333	0,443
371,00	0,109	0,223	0,337	0,448
371,50	0,110	0,226	0,341	0,453
372,00	0,111	0,228	0,345	0,459
372,50	0,113	0,231	0,349	0,464
373,00	0,114	0,234	0,353	0,469
373,50	0,115	0,236	0,356	0,474
374,00	0,116	0,238	0,359	0,478
374,50	0,118	0,241	0,363	0,483
375,00	0,119	0,244	0,367	0,489
375,50	0,120	0,246	0,371	0,494
376,00	0,122	0,249	0,374	0,498
376,50	0,123	0,251	0,377	0,502
377,00	0,124	0,253	0,381	0,506
377,50	0,125	0,255	0,384	0,510
378,00	0,126	0,257	0,387	0,515
378,50	0,127	0,259	0,390	0,519
379,00	0,128	0,261	0,393	0,523
379,50	0,129	0,263	0,396	0,527
380,00	0,130	0,265	0,399	0,530
380,50	0,131	0,267	0,401	0,534
381,00	0,132	0,269	0,404	0,537
381,50	0,133	0,271	0,407	0,541
382,00	0,133	0,272	0,409	0,544
382,50	0,134	0,274	0,411	0,547
383,00	0,135	0,275	0,413	0,550
383,50	0,135	0,277	0,415	0,552
384,00	0,136	0,278	0,417	0,555
384,50	0,137	0,279	0,419	0,557
385,00	0,137	0,280	0,421	0,560
385,50	0,138	0,282	0,423	0,562
386,00	0,138	0,283	0,424	0,564
386,50	0,139	0,283	0,426	0,566
387,00	0,139	0,284	0,427	0,568
387,50	0,140	0,285	0,428	0,569
388,00	0,140	0,286	0,429	0,571
388,50	0,141	0,287	0,430	0,572
389,00	0,141	0,287	0,431	0,574
389,50	0,141	0,288	0,432	0,574
390,00	0,141	0,288	0,432	0,575
390,50	0,142	0,289	0,433	0,576
391,00	0,142	0,289	0,433	0,576
391,50	0,142	0,289	0,433	0,577
392,00	0,142	0,289	0,434	0,577
392,50	0,142	0,289	0,434	0,577
393,00	0,142	0,289	0,434	0,577
393,50	0,142	0,289	0,433	0,577
394,00	0,141	0,289	0,433	0,576
394,50	0,141	0,288	0,433	0,576
395,00	0,141	0,288	0,432	0,575
395,50	0,141	0,288	0,431	0,574
396,00	0,141	0,287	0,430	0,573
396,50	0,141	0,287	0,430	0,572
397,00	0,140	0,286	0,429	0,570
397,50	0,140	0,285	0,427	0,569
398,00	0,139	0,284	0,426	0,567
398,50	0,139	0,283	0,424	0,565
399,00	0,138	0,282	0,423	0,563
399,50	0,138	0,281	0,421	0,561
400,00	0,137	0,280	0,420	0,559
400,50	0,136	0,279	0,418	0,556
401,00	0,136	0,277	0,416	0,553
401,50	0,135	0,276	0,413	0,550
402,00	0,134	0,274	0,411	0,547
402,50	0,133	0,273	0,409	0,544
403,00	0,132	0,271	0,406	0,541
403,50	0,131	0,269	0,403	0,537
404,00	0,130	0,267	0,400	0,533
404,50	0,129	0,265	0,397	0,529
405,00	0,128	0,263	0,394	0,525
405,50	0,127	0,261	0,391	0,521
406,00	0,126	0,258	0,388	0,517
406,50	0,125	0,256	0,384	0,512
407,00	0,124	0,254	0,381	0,507
407,50	0,122	0,251	0,377	0,502
408,00	0,121	0,248	0,373	0,497
408,50	0,120	0,246	0,369	0,492
409,00	0,119	0,243	0,365	0,486
409,50	0,117	0,240	0,361	0,481
410,00	0,116	0,237	0,357	0,475
410,50	0,114	0,234	0,352	0,470
411,00	0,112	0,231	0,348	0,463
411,50	0,111	0,228	0,343	0,457
412,00	0,109	0,225	0,338	0,451
412,50	0,108	0,222	0,333	0,445
413,00	0,106	0,219	0,329	0,438
413,50	0,105	0,215	0,324	0,432
414,00	0,103	0,212	0,319	0,426
414,50	0,101	0,209	0,314	0,419
415,00	0,099	0,206	0,309	0,413
415,50	0,098	0,202	0,304	0,405
416,00	0,096	0,198	0,299	0,399
416,50	0,094	0,195	0,294	0,392
417,00	0,093	0,192	0,289	0,386
417,50	0,091	0,188	0,284	0,379
418,00	0,089	0,185	0,278	0,371
418,50	0,087	0,181	0,273	0,364
419,00	0,085	0,177	0,268	0,357
419,50	0,083	0,174	0,262	0,350
420,00	0,082	0,170	0,257	0,343
420,50	0,080	0,167	0,252	0,336
421,00	0,078	0,163	0,247	0,330
421,50	0,076	0,159	0,241	0,322
422,00	0,074	0,156	0,235	0,314
422,50	0,073	0,152	0,230	0,308
423,00	0,071	0,149	0,225	0,301
423,50	0,069	0,145	0,220	0,294
424,00	0,067	0,141	0,214	0,287
424,50	0,065	0,138	0,209	0,280
425,00	0,064	0,134	0,204	0,273
425,50	0,062	0,130	0,198	0,266
426,00	0,060	0,127	0,193	0,259
426,50	0,058	0,124	0,188	0,253
427,00	0,057	0,121	0,184	0,246
427,50	0,055	0,117	0,179	0,240
428,00	0,053	0,114	0,174	0,233
428,50	0,052	0,111	0,169	0,226
429,00	0,050	0,107	0,164	0,220
429,50	0,049	0,104	0,160	0,214
430,00	0,047	0,101	0,155	0,208
430,50	0,046	0,098	0,151	0,202
431,00	0,044	0,095	0,146	0,196
431,50	0,042	0,092	0,141	0,190
432,00	0,041	0,089	0,137	0,184
432,50	0,039	0,086	0,132	0,178
433,00	0,038	0,083	0,128	0,172
433,50	0,037	0,080	0,124	0,167
434,00	0,035	0,077	0,120	0,162
434,50	0,034	0,075	0,116	0,156
435,00	0,033	0,072	0,112	0,151
435,50	0,031	0,069	0,108	0,145
436,00	0,030	0,067	0,104	0,140
436,50	0,029	0,064	0,100	0,135
437,00	0,028	0,062	0,097	0,131
437,50	0,026	0,059	0,093	0,126
438,00	0,025	0,057	0,090	0,121
438,50	0,024	0,055	0,086	0,117
439,00	0,023	0,052	0,083	0,112
439,50	0,022	0,050	0,079	0,108
440,00	0,021	0,048	0,076	0,104
440,50	0,020	0,046	0,073	0,100
441,00	0,018	0,044	0,070	0,096
441,50	0,017	0,042	0,067	0,092
442,00	0,016	0,040	0,064	0,088
442,50	0,015	0,038	0,062	0,084
443,00	0,015	0,036	0,059	0,081
443,50	0,014	0,034	0,056	0,077
444,00	0,013	0,033	0,054	0,074
444,50	0,012	0,031	0,051	0,070
445,00	0,011	0,029	0,049	0,067
445,50	0,010	0,028	0,047	0,064
446,00	0,010	0,026	0,044	0,061
446,50	0,009	0,025	0,042	0,058
447,00	0,008	0,023	0,040	0,055
447,50	0,008	0,022	0,038	0,053
448,00	0,007	0,021	0,036	0,050
448,50	0,006	0,019	0,034	0,047
449,00	0,006	0,018	0,032	0,045
449,50	0,005	0,017	0,031	0,043
450,00	0,004	0,016	0,029	0,041
450,50	0,004	0,015	0,027	0,038
451,00	0,003	0,013	0,025	0,036
451,50	0,003	0,012	0,024	0,034
452,00	0,002	0,011	0,022	0,032
452,50	0,002	0,010	0,021	0,030
453,00	0,001	0,010	0,019	0,028
453,50	0,001	0,009	0,018	0,026
454,00	0,001	0,008	0,017	0,025
454,50	0,000	0,007	0,016	0,023
455,00	-0,000	0,006	0,015	0,022
455,50	-0,001	0,005	0,013	0,020
456,00	-0,001	0,005	0,012	0,018
456,50	-0,001	0,004	0,011	0,017
457,00	-0,002	0,003	0,010	0,016
457,50	-0,002	0,003	0,009	0,015
458,00	-0,002	0,002	0,008	0,013
458,50	-0,002	0,001	0,007	0,012
459,00	-0,003	0,001	0,007	0,011
459,50	-0,003	0,000	0,006	0,010
460,00	-0,003	-0,000	0,005	0,009
460,50	-0,003	-0,001	0,004	0,008
461,00	-0,004	-0,001	0,004	0,007
461,50	-0,004	-0,002	0,003	0,006
462,00	-0,004	-0,002	0,002	0,005
462,50	-0,004	-0,002	0,002	0,004
463,00	-0,005	-0,003	0,001	0,004
463,50	-0,005	-0,003	0,001	0,003
464,00	-0,005	-0,004	0,000	0,002
464,50	-0,005	-0,004	-0,000	0,002
465,00	-0,005	-0,004	-0,001	0,001
465,50	-0,005	-0,004	-0,001	0,000
466,00	-0,006	-0,005	-0,002	-0,000
466,50	-0,006	-0,005	-0,002	-0,001
467,00	-0,006	-0,005	-0,002	-0,001
467,50	-0,006	-0,005	-0,003	-0,002
468,00	-0,006	-0,006	-0,003	-0,002
468,50	-0,006	-0,006	-0,004	-0,003
469,00	-0,006	-0,006	-0,004	-0,003
469,50	-0,006	-0,006	-0,004	-0,003
470,00	-0,006	-0,006	-0,004	-0,004
470,50	-0,007	-0,007	-0,005	-0,004
471,00	-0,007	-0,007	-0,005	-0,004
471,50	-0,007	-0,007	-0,005	-0,005
472,00	-0,007	-0,007	-0,005	-0,005
472,50	-0,007	-0,007	-0,006	-0,005
473,00	-0,007	-0,007	-0,006	-0,006
473,50	-0,007	-0,007	-0,006	-0,006
474,00	-0,007	-0,008	-0,006	-0,006
474,50	-0,007	-0,008	-0,006	-0,006
475,00	-0,007	-0,008	-0,006	-0,006
475,50	-0,007	-0,008	-0,007	-0,007
476,00	-0,007	-0,008	-0,007	-0,007
476,50	-0,007	-0,008	-0,007	-0,007
477,00	-0,007	-0,008	-0,007	-0,007
477,50	-0,007	-0,008	-0,007	-0,007
478,00	-0,007	-0,008	-0,007	-0,008
478,50	-0,007	-0,008	-0,007	-0,008
479,00	-0,007	-0,008	-0,007	-0,008
479,50	-0,007	-0,009	-0,008	-0,008
480,00	-0,007	-0,009	-0,008	-0,008
480,50	-0,007	-0,009	-0,008	-0,008
481,00	-0,007	-0,009	-0,008	-0,008
481,50	-0,007	-0,009	-0,008	-0,008
482,00	-0,007	-0,009	-0,008	-0,008
482,50	-0,007	-0,009	-0,008	-0,008
483,00	-0,007	-0,009	-0,008	-0,008
483,50	-0,007	-0,009	-0,008	-0,008
484,00	-0,007	-0,009	-0,008	-0,008
484,50	-0,007	-0,009	-0,008	-0,009
485,00	-0,007	-0,009	-0,008	-0,009
485,50	-0,007	-0,009	-0,008	-0,009
486,00	-0,007	-0,009	-0,008	-0,009
486,50	-0,007	-0,009	-0,008	-0,009
487,00	-0,007	-0,009	-0,008	-0,009
487,50	-0,007	-0,009	-0,008	-0,009
488,00	-0,007	-0,009	-0,008	-0,009
488,50	-0,007	-0,009	-0,008	-0,009
489,00	-0,007	-0,009	-0,008	-0,009
489,50	-0,007	-0,009	-0,008	-0,009
490,00	-0,007	-0,009	-0,008	-0,009
490,50	-0,007	-0,009	-0,008	-0,009
491,00	-0,007	-0,009	-0,008	-0,009
491,50	-0,007	-0,009	-0,008	-0,009
492,00	-0,007	-0,009	-0,008	-0,009
492,50	-0,007	-0,009	-0,008	-0,009
493,00	-0,007	-0,009	-0,008	-0,009
493,50	-0,007	-0,009	-0,008	-0,009
494,00	-0,007	-0,009	-0,008	-0,009
494,50	-0,007	-0,009	-0,008	-0,009
495,00	-0,007	-0,009	-0,008	-0,009
495,50	-0,007	-0,009	-0,008	-0,009
496,00	-0,007	-0,009	-0,008	-0,009
496,50	-0,007	-0,009	-0,008	-0,009
497,00	-0,007	-0,009	-0,008	-0,009
497,50	-0,007	-0,009	-0,008	-0,009
498,00	-0,007	-0,009	-0,008	-0,009
498,50	-0,007	-0,009	-0,008	-0,009
499,00	-0,007	-0,009	-0,008	-0,009
499,50	-0,007	-0,009	-0,008	-0,009
500,00	-0,007	-0,009	-0,008	-0,009
